reward_today,future_reward,delay,trials.thisRepN,trials.thisTrialN,trials.thisN,trials.thisIndex,Fixation.started,text.started,key_resp.started,Fixation.stopped,key_resp.keys,key_resp.rt,key_resp.duration,participant,session,date,expName,psychopyVersion,frameRate,
20,69,51,0,0,0,96,14.224603334001586,15.17246491700098,15.17246491700098,15.22114533400054,l,0.35698533399954613,None,1,001,2023-11-22_17h25.08.440,delay_discounting,2023.1.3,None,
39,83,10,0,1,1,92,15.581371000000217,16.563233124999897,16.563233124999897,16.578171625000323,l,0.3097766249993583,None,1,001,2023-11-22_17h25.08.440,delay_discounting,2023.1.3,None,
41,74,65,0,2,2,68,16.908370167000612,17.879642667001463,17.879642667001463,17.904153084000427,l,0.24110970800029463,None,1,001,2023-11-22_17h25.08.440,delay_discounting,2023.1.3,None,
18,20,44,0,3,3,40,18.13812920900091,19.12090079200061,19.12090079200061,19.12746566700116,l,0.22323895800036553,None,1,001,2023-11-22_17h25.08.440,delay_discounting,2023.1.3,None,
29,48,7,0,4,4,67,19.360645333999855,20.346212542001012,20.346212542001012,20.354247625000426,t,0.21758770899941737,None,1,001,2023-11-22_17h25.08.440,delay_discounting,2023.1.3,None,
28,66,30,0,5,5,51,20.588942667000083,21.57112708400018,21.57112708400018,21.587677834000715,l,0.2014624580006057,None,1,001,2023-11-22_17h25.08.440,delay_discounting,2023.1.3,None,
35,37,86,0,6,6,26,21.794584500001292,22.780256750000262,22.780256750000262,22.78711583400036,t,0.6713858749990322,None,1,001,2023-11-22_17h25.08.440,delay_discounting,2023.1.3,None,
12,21,97,0,7,7,20,23.47180870900047,24.454562959001123,24.454562959001123,24.461655417000657,t,0.6191400420011632,None,1,001,2023-11-22_17h25.08.440,delay_discounting,2023.1.3,None,
23,33,98,0,8,8,97,25.094544167001004,26.071289000001343,26.071289000001343,26.087864250001076,t,0.5576134580005601,None,1,001,2023-11-22_17h25.08.440,delay_discounting,2023.1.3,None,
13,22,66,0,9,9,73,26.656100542000786,27.6379700840007,27.6379700840007,27.654594209001516,l,0.3710330840003735,None,1,001,2023-11-22_17h25.08.440,delay_discounting,2023.1.3,None,
24,86,43,0,10,10,33,28.027226584001255,29.013035584001045,29.013035584001045,29.020537042000797,l,0.39184833299987076,None,1,001,2023-11-22_17h25.08.440,delay_discounting,2023.1.3,None,
17,57,93,0,11,11,41,29.421839459000694,30.404959999999846,30.404959999999846,30.411539709000863,l,0.42132170900003985,None,1,001,2023-11-22_17h25.08.440,delay_discounting,2023.1.3,None,
21,74,80,0,12,12,81,30.84638441700008,31.830277000000933,31.830277000000933,31.838221125000928,t,0.7919266669996432,None,1,001,2023-11-22_17h25.08.440,delay_discounting,2023.1.3,None,
17,46,24,0,13,13,52,32.6393215420012,33.62150337500134,33.62150337500134,33.6381447090007,l,0.6702131660003943,None,1,001,2023-11-22_17h25.08.440,delay_discounting,2023.1.3,None,
46,57,37,0,14,14,66,34.311063125000146,35.29692637500011,35.29692637500011,35.304950499999904,l,0.6582738329998392,None,1,001,2023-11-22_17h25.08.440,delay_discounting,2023.1.3,None,
39,56,51,0,15,15,98,35.97208679200048,36.95500183400145,36.95500183400145,36.9624858340012,l,0.7593930419989192,None,1,001,2023-11-22_17h25.08.440,delay_discounting,2023.1.3,None,
12,22,55,0,16,16,57,37.737751250000656,38.71382170900142,38.71382170900142,38.72788204200151,l,1.0584560410006816,None,1,001,2023-11-22_17h25.08.440,delay_discounting,2023.1.3,None,
48,62,12,0,17,17,69,39.789942875000634,40.7717531670005,40.7717531670005,40.78849516700029,l,0.5542346250003902,None,1,001,2023-11-22_17h25.08.440,delay_discounting,2023.1.3,None,
49,60,89,0,18,18,4,41.343807459001255,42.33021629200084,42.33021629200084,42.33856675000061,t,0.5857949169985659,None,1,001,2023-11-22_17h25.08.440,delay_discounting,2023.1.3,None,
12,50,52,0,19,19,63,42.939154875000895,43.921957792001194,43.921957792001194,43.9291255420012,l,0.7643762909992802,None,1,001,2023-11-22_17h25.08.440,delay_discounting,2023.1.3,None,
30,77,57,0,20,20,24,44.70585375000155,45.68867466700067,45.68867466700067,45.69527633400139,l,0.8888327499989828,None,1,001,2023-11-22_17h25.08.440,delay_discounting,2023.1.3,None,
31,76,52,0,21,21,71,46.59369808400152,47.58055329200033,47.58055329200033,47.588738166999974,l,2.1390131669995753,None,1,001,2023-11-22_17h25.08.440,delay_discounting,2023.1.3,None,
28,50,94,0,22,22,39,49.73900941700049,50.72215145900009,50.72215145900009,50.72886479200133,t,2.109542791999047,None,1,001,2023-11-22_17h25.08.440,delay_discounting,2023.1.3,None,
44,55,65,0,23,23,91,52.855954000000565,53.83900466700106,53.83900466700106,53.84574683400024,l,0.9670156669999415,None,1,001,2023-11-22_17h25.08.440,delay_discounting,2023.1.3,None,
23,81,80,0,24,24,16,54.822769500000504,55.805802959001085,55.805802959001085,55.812402625000686,t,0.89316379200136,None,1,001,2023-11-22_17h25.08.440,delay_discounting,2023.1.3,None,
21,45,79,0,25,25,34,56.72294358399995,57.69836091700017,57.69836091700017,57.71277808400009,t,1.6991518330014515,None,1,001,2023-11-22_17h25.08.440,delay_discounting,2023.1.3,None,
38,40,59,0,26,26,31,59.422997375000705,60.40584512500027,60.40584512500027,60.412492792000194,l,0.9033347080003296,None,1,001,2023-11-22_17h25.08.440,delay_discounting,2023.1.3,None,
14,45,96,0,27,27,14,61.3292458750002,62.315167792001375,62.315167792001375,62.32204387500133,t,0.8471622920005757,None,1,001,2023-11-22_17h25.08.440,delay_discounting,2023.1.3,None,
26,38,25,0,28,28,44,63.17904529200132,64.16473462500107,64.16473462500107,64.17188520900163,l,0.6292443330003152,None,1,001,2023-11-22_17h25.08.440,delay_discounting,2023.1.3,None,
47,74,27,0,29,29,65,64.81193404199985,65.79852954200032,65.79852954200032,65.8053608750015,l,0.4131692920000205,None,1,001,2023-11-22_17h25.08.440,delay_discounting,2023.1.3,None,
13,88,47,0,30,30,38,66.22903875000156,67.20613625000078,67.20613625000078,67.22287170900017,l,0.9153207500003191,None,1,001,2023-11-22_17h25.08.440,delay_discounting,2023.1.3,None,
47,66,52,0,31,31,43,68.13969866700063,69.1229874590008,69.1229874590008,69.12971041700075,t,0.8403698749989417,None,1,001,2023-11-22_17h25.08.440,delay_discounting,2023.1.3,None,
19,86,45,0,32,32,72,69.98036366700035,70.96523412500028,70.96523412500028,70.97240462500122,l,0.5435558329991181,None,1,001,2023-11-22_17h25.08.440,delay_discounting,2023.1.3,None,
43,61,41,0,33,33,8,71.5282918339999,72.50637283400101,72.50637283400101,72.52307975000076,l,0.6359929999998712,None,1,001,2023-11-22_17h25.08.440,delay_discounting,2023.1.3,None,
21,53,54,0,34,34,78,73.16283491700051,74.13978920900081,74.13978920900081,74.15640916700067,l,0.5317535419999331,None,1,001,2023-11-22_17h25.08.440,delay_discounting,2023.1.3,None,
26,34,47,0,35,35,56,74.69010470900139,75.66509141700044,75.66509141700044,75.67949737500021,l,0.4370169999983773,None,1,001,2023-11-22_17h25.08.440,delay_discounting,2023.1.3,None,
18,31,68,0,36,36,55,76.12316054200164,77.10656762500003,77.10656762500003,77.11405504200047,l,0.4132239999999001,None,1,001,2023-11-22_17h25.08.440,delay_discounting,2023.1.3,None,
11,51,87,0,37,37,28,77.5403687500002,78.51555691700014,78.51555691700014,78.5300895420005,l,0.4418535420008993,None,1,001,2023-11-22_17h25.08.440,delay_discounting,2023.1.3,None,
13,59,10,0,38,38,7,78.97455908400116,79.9566662090001,79.9566662090001,79.97336779200123,l,0.7280089169998973,None,1,001,2023-11-22_17h25.08.440,delay_discounting,2023.1.3,None,
49,63,63,0,39,39,27,80.70691208400058,81.68213133400059,81.68213133400059,81.69656779200159,l,0.6348407909990783,None,1,001,2023-11-22_17h25.08.440,delay_discounting,2023.1.3,None,
48,52,50,0,40,40,87,82.34011754200037,83.31545129200094,83.31545129200094,83.32892433400048,l,0.46196308299840894,None,1,001,2023-11-22_17h25.08.440,delay_discounting,2023.1.3,None,
48,70,42,0,41,41,93,83.79562116700072,84.7822932500003,84.7822932500003,84.79030570900068,t,0.5083583750001708,None,1,001,2023-11-22_17h25.08.440,delay_discounting,2023.1.3,None,
67,75,119,0,42,42,5,85.30751712500023,86.29027437500008,86.29027437500008,86.29697670899986,l,0.4974149589997978,None,1,001,2023-11-22_17h25.08.440,delay_discounting,2023.1.3,None,
40,55,62,0,43,43,3,86.80706754200037,87.79004316700048,87.79004316700048,87.79673804200138,l,1.1167142079993937,None,1,001,2023-11-22_17h25.08.440,delay_discounting,2023.1.3,None,
11,53,56,0,44,44,88,88.92407504200128,89.90702912500092,89.90702912500092,89.91370000000097,t,0.6020918750000419,None,1,001,2023-11-22_17h25.08.440,delay_discounting,2023.1.3,None,
31,49,83,0,45,45,61,90.52924141699987,91.5170503340014,91.5170503340014,91.52375066700006,t,0.48691295799835643,None,1,001,2023-11-22_17h25.08.440,delay_discounting,2023.1.3,None,
45,52,30,0,46,46,23,92.02417475000038,93.00720208400162,93.00720208400162,93.01399658400078,l,0.45519941599923186,None,1,001,2023-11-22_17h25.08.440,delay_discounting,2023.1.3,None,
20,40,37,0,47,47,32,93.4805457500006,94.46594658400136,94.46594658400136,94.47395833400151,l,0.4648827919991163,None,1,001,2023-11-22_17h25.08.440,delay_discounting,2023.1.3,None,
78,80,162,0,48,48,6,94.94667870900048,95.93228837500101,95.93228837500101,95.94056137500047,t,0.5366403339994577,None,1,001,2023-11-22_17h25.08.440,delay_discounting,2023.1.3,None,
43,87,70,0,49,49,30,96.48877304200141,97.46610525000142,97.46610525000142,97.48012420900159,l,0.38283291600055236,None,1,001,2023-11-22_17h25.08.440,delay_discounting,2023.1.3,None,
39,88,37,0,50,50,13,97.87022933400112,98.85005625000122,98.85005625000122,98.86451195900008,l,0.38296770800116064,None,1,001,2023-11-22_17h25.08.440,delay_discounting,2023.1.3,None,
29,58,78,0,51,51,46,99.25809820900031,100.24079216700011,100.24079216700011,100.2475549589999,l,0.708254291999765,None,1,001,2023-11-22_17h25.08.440,delay_discounting,2023.1.3,None,
15,73,94,0,52,52,36,100.97474066700124,101.95761050000146,101.95761050000146,101.96444220900048,t,0.5623651669993706,None,1,001,2023-11-22_17h25.08.440,delay_discounting,2023.1.3,None,
44,89,83,0,53,53,48,102.54138537500148,103.5243100000007,103.5243100000007,103.53116304200012,l,1.2670787500010192,None,1,001,2023-11-22_17h25.08.440,delay_discounting,2023.1.3,None,
22,60,46,0,54,54,58,104.80822912500116,105.79105133400117,105.79105133400117,105.7979018340011,l,1.1849594579998666,None,1,001,2023-11-22_17h25.08.440,delay_discounting,2023.1.3,None,
16,43,16,0,55,55,77,106.99697037500118,107.97447066700079,107.97447066700079,107.99104312500094,l,0.6253541659989423,None,1,001,2023-11-22_17h25.08.440,delay_discounting,2023.1.3,None,
17,50,44,0,56,56,11,108.624852500001,109.60789758400097,109.60789758400097,109.61463366700082,l,2.5201859999997396,None,1,001,2023-11-22_17h25.08.440,delay_discounting,2023.1.3,None,
33,78,97,0,57,57,22,112.14741112500087,113.13368316700144,113.13368316700144,113.14029750000009,t,0.5080307919997722,None,1,001,2023-11-22_17h25.08.440,delay_discounting,2023.1.3,None,
24,77,32,0,58,58,99,113.658888209,114.64129504199991,114.64129504199991,114.64806008400046,l,0.45738512500065553,None,1,001,2023-11-22_17h25.08.440,delay_discounting,2023.1.3,None,
35,72,49,0,59,59,50,115.1213864170004,116.10806791700088,116.10806791700088,116.11471900000106,l,0.8110282079996978,None,1,001,2023-11-22_17h25.08.440,delay_discounting,2023.1.3,None,
43,83,18,0,60,60,47,116.9422595420001,117.92494170900136,117.92494170900136,117.93174091700166,l,0.45045337500050664,None,1,001,2023-11-22_17h25.08.440,delay_discounting,2023.1.3,None,
44,76,95,0,61,61,37,118.39260758400087,119.37486020899996,119.37486020899996,119.39142575000005,t,0.6664271669997106,None,1,001,2023-11-22_17h25.08.440,delay_discounting,2023.1.3,None,
33,55,60,0,62,62,15,120.05807066700072,121.04162883400022,121.04162883400022,121.04924295900128,l,0.516791292000562,None,1,001,2023-11-22_17h25.08.440,delay_discounting,2023.1.3,None,
41,50,76,0,63,63,60,121.57604566700138,122.55827529199996,122.55827529199996,122.57496229200115,l,0.7117317909996927,None,1,001,2023-11-22_17h25.08.440,delay_discounting,2023.1.3,None,
39,30,99,0,64,64,54,123.29201541700058,124.27502291700148,124.27502291700148,124.2816474170013,t,0.7836475000003702,None,1,001,2023-11-22_17h25.08.440,delay_discounting,2023.1.3,None,
44,67,11,0,65,65,21,125.07520583400037,126.05840483400061,126.05840483400061,126.06508320900139,l,0.46961833299974387,None,1,001,2023-11-22_17h25.08.440,delay_discounting,2023.1.3,None,
15,55,56,0,66,66,49,126.5475809590007,127.52507204200083,127.52507204200083,127.54181425000024,l,0.6646597500002827,None,1,001,2023-11-22_17h25.08.440,delay_discounting,2023.1.3,None,
29,40,98,0,67,67,84,128.20916333400055,129.184768000001,129.184768000001,129.2257951669999,t,1.3920920420005132,None,1,001,2023-11-22_17h25.08.440,delay_discounting,2023.1.3,None,
14,64,24,0,68,68,17,130.59768150000127,131.57532691699998,131.57532691699998,131.59195095900031,l,0.5562460840010317,None,1,001,2023-11-22_17h25.08.440,delay_discounting,2023.1.3,None,
27,57,18,0,69,69,94,132.1484345000008,133.12531912500162,133.12531912500162,133.14195029200164,l,0.557280457998786,None,1,001,2023-11-22_17h25.08.440,delay_discounting,2023.1.3,None,
44,70,81,0,70,70,18,133.70998837500156,134.69224179200137,134.69224179200137,134.70872766700086,l,0.47477558399987174,None,1,001,2023-11-22_17h25.08.440,delay_discounting,2023.1.3,None,
47,83,51,0,71,71,19,135.19077387500147,136.17546404200039,136.17546404200039,136.18220787500104,t,0.43979995799963945,None,1,001,2023-11-22_17h25.08.440,delay_discounting,2023.1.3,None,
37,60,17,0,72,72,85,136.63176941700112,137.6087657500011,137.6087657500011,137.62543191700024,l,0.5941125000008469,None,1,001,2023-11-22_17h25.08.440,delay_discounting,2023.1.3,None,
10,77,19,0,73,73,70,138.22662920900075,139.208903834,139.208903834,139.22554816699994,l,0.4700244589985232,None,1,001,2023-11-22_17h25.08.440,delay_discounting,2023.1.3,None,
28,32,43,0,74,74,53,139.69811495900103,140.68498633400122,140.68498633400122,140.69167941700107,l,0.7534734159999061,None,1,001,2023-11-22_17h25.08.440,delay_discounting,2023.1.3,None,
21,69,28,0,75,75,83,141.46027345900075,142.44237975000033,142.44237975000033,142.4590150840013,l,0.46069224999882863,None,1,001,2023-11-22_17h25.08.440,delay_discounting,2023.1.3,None,
42,72,98,0,76,76,45,142.92732366700147,143.90906041700146,143.90906041700146,143.92578320900066,t,0.38717512499897566,None,1,001,2023-11-22_17h25.08.440,delay_discounting,2023.1.3,None,
15,20,35,0,77,77,64,144.31538870900113,145.30171012500068,145.30171012500068,145.3085883750009,l,0.9496428329985065,None,1,001,2023-11-22_17h25.08.440,delay_discounting,2023.1.3,None,
15,35,13,0,78,78,1,146.2763963340003,147.25175420900086,147.25175420900086,147.265874875,l,0.4813762090016098,None,1,001,2023-11-22_17h25.08.440,delay_discounting,2023.1.3,None,
16,70,88,0,79,79,89,147.74962929200046,148.73501379200025,148.73501379200025,148.74175462499988,t,0.44947983299971384,None,1,001,2023-11-22_17h25.08.440,delay_discounting,2023.1.3,None,
45,64,100,0,80,80,25,149.2093810840015,150.19264866699996,150.19264866699996,150.19982458400045,t,0.5417528750003839,None,1,001,2023-11-22_17h25.08.440,delay_discounting,2023.1.3,None,
11,30,7,0,81,81,0,150.7610285840001,151.74277362500106,151.74277362500106,151.75929445900147,l,0.7426663749993168,None,1,001,2023-11-22_17h25.08.440,delay_discounting,2023.1.3,None,
10,55,53,0,82,82,82,152.5103129170002,153.49280637500124,153.49280637500124,153.49993120900035,l,0.917997041999115,None,1,001,2023-11-22_17h25.08.440,delay_discounting,2023.1.3,None,
40,47,94,0,83,83,90,154.43083087500054,155.40941354200004,155.40941354200004,155.42614154200055,t,0.5375386249997973,None,1,001,2023-11-22_17h25.08.440,delay_discounting,2023.1.3,None,
24,63,90,0,84,84,79,155.96378216700032,156.9519673750001,156.9519673750001,156.95872991700162,t,0.47863545900145255,None,1,001,2023-11-22_17h25.08.440,delay_discounting,2023.1.3,None,
27,50,21,0,85,85,2,157.4487737090003,158.42623641700084,158.42623641700084,158.442870709001,l,0.5023922919990582,None,1,001,2023-11-22_17h25.08.440,delay_discounting,2023.1.3,None,
26,42,38,0,86,86,12,158.94919516700065,159.93556929199985,159.93556929199985,159.94235670900161,l,0.5841212919985992,None,1,001,2023-11-22_17h25.08.440,delay_discounting,2023.1.3,None,
34,68,39,0,87,87,10,160.5434977090008,161.5263894590007,161.5263894590007,161.532915709,l,0.5389073340011237,None,1,001,2023-11-22_17h25.08.440,delay_discounting,2023.1.3,None,
29,33,44,0,88,88,95,162.0836365840005,163.06855112500125,163.06855112500125,163.07655470900136,l,0.753416458999709,None,1,001,2023-11-22_17h25.08.440,delay_discounting,2023.1.3,None,
40,51,76,0,89,89,80,163.8435920840002,164.82683762500164,164.82683762500164,164.83490958400034,t,0.7038730830008717,None,1,001,2023-11-22_17h25.08.440,delay_discounting,2023.1.3,None,
44,69,85,0,90,90,86,165.54953745900093,166.53606704200138,166.53606704200138,166.54297729200152,t,0.4244320409998181,None,1,001,2023-11-22_17h25.08.440,delay_discounting,2023.1.3,None,
12,73,100,0,91,91,9,166.9774039590011,167.95998537500054,167.95998537500054,167.96660662500108,t,0.6080294579987822,None,1,001,2023-11-22_17h25.08.440,delay_discounting,2023.1.3,None,
20,57,31,0,92,92,29,168.59388808400035,169.57664941700023,169.57664941700023,169.58335137500035,l,0.5674969579995377,None,1,001,2023-11-22_17h25.08.440,delay_discounting,2023.1.3,None,
45,79,50,0,93,93,74,170.16487637499995,171.14337733400134,171.14337733400134,171.1600921670015,l,0.7541156250008498,None,1,001,2023-11-22_17h25.08.440,delay_discounting,2023.1.3,None,
19,56,76,0,94,94,75,171.91515970900036,172.90215629200065,172.90215629200065,172.91009733400097,l,0.7956754170008935,None,1,001,2023-11-22_17h25.08.440,delay_discounting,2023.1.3,None,
12,77,33,0,95,95,35,173.71639850000065,174.7027989170001,174.7027989170001,174.7096301670008,l,0.7040410420013359,None,1,001,2023-11-22_17h25.08.440,delay_discounting,2023.1.3,None,
17,86,18,0,96,96,62,175.42826408400106,176.4094787920003,176.4094787920003,176.42688337500113,l,0.5014470000005531,None,1,001,2023-11-22_17h25.08.440,delay_discounting,2023.1.3,None,
34,71,18,0,97,97,59,176.92847620900102,177.91033245900144,177.91033245900144,177.92696012500164,l,0.3722383339991211,None,1,001,2023-11-22_17h25.08.440,delay_discounting,2023.1.3,None,
24,81,15,0,98,98,76,178.30035987500014,179.28631000000132,179.28631000000132,179.29344762500114,l,0.43800362500041956,None,1,001,2023-11-22_17h25.08.440,delay_discounting,2023.1.3,None,
39,61,48,0,99,99,42,179.74372979200052,180.71919466700092,180.71919466700092,180.7337489170004,l,0.6656874169984803,None,1,001,2023-11-22_17h25.08.440,delay_discounting,2023.1.3,None,
